File: general_functions/xrd.dat
2	0.39122
2.04	0.38331
2.08	0.37594
2.12	0.36909
2.16	0.36271
2.2	0.35678
2.24	0.35128
2.28	0.34618
2.32	0.34147
2.36	0.33712
2.4	0.33311
2.44	0.32944
2.48	0.32609
2.52	0.32304
2.56	0.32029
2.6	0.31783
2.64	0.31565
2.68	0.31374
2.72	0.31209
2.76	0.31071
2.8	0.30958
2.84	0.30871
2.88	0.30809
2.92	0.30772
2.96	0.30759
3	0.30772
3.04	0.3081
3.08	0.30874
3.12	0.30963
3.16	0.31079
3.2	0.31221
3.24	0.31391
3.28	0.31588
3.32	0.31815
3.36	0.32071
3.4	0.32359
3.44	0.32679
3.48	0.33033
3.52	0.33422
3.56	0.33849
3.6	0.34315
3.64	0.34822
3.68	0.35373
3.72	0.35971
3.76	0.36619
3.8	0.3732
3.84	0.38079
3.88	0.38898
3.92	0.39784
3.96	0.40742
4	0.41777
4.04	0.42897
4.08	0.44109
4.12	0.45421
4.16	0.46844
4.2	0.48388
4.24	0.50066
4.28	0.51893
4.32	0.53885
4.36	0.5606
4.4	0.58442
4.44	0.61054
4.48	0.63928
4.52	0.67097
4.56	0.70602
4.6	0.74491
4.64	0.78822
4.68	0.83665
4.72	0.891
4.76	0.95231
4.8	1.0218
4.84	1.101
4.88	1.1918
4.92	1.2966
4.96	1.4185
5	1.5615
5.04	1.7306
5.08	1.9329
5.12	2.1775
5.16	2.4774
5.2	2.8506
5.24	3.3232
5.28	3.9341
5.32	4.7429
5.36	5.8447
5.4	7.3977
5.44	9.68
5.48	13.208
5.52	19.003
5.56	29.179
5.6	47.865
5.64	78.602
5.68	100
5.72	77.129
5.76	45.746
5.8	27.08
5.84	17.12
5.88	11.553
5.92	8.2227
5.96	6.104
6	4.6851
6.04	3.694
6.08	2.9773
6.12	2.4439
6.16	2.0371
6.2	1.7204
6.24	1.4695
6.28	1.2677
6.32	1.103
6.36	0.96715
6.4	0.85383
6.44	0.75843
6.48	0.67743
6.52	0.60812
6.56	0.54842
6.6	0.49665
6.64	0.45151
6.68	0.41193
6.72	0.37706
6.76	0.3462
6.8	0.31878
6.84	0.29431
6.88	0.27239
6.92	0.2527
6.96	0.23495
7	0.2189
7.04	0.20435
7.08	0.19112
7.12	0.17906
7.16	0.16804
7.2	0.15795
7.24	0.1487
7.28	0.14019
7.32	0.13234
7.36	0.12511
7.4	0.11842
7.44	0.11222
7.48	0.10647
7.52	0.10113
7.56	0.096164
7.6	0.091536
7.64	0.087218
7.68	0.083184
7.72	0.079412
7.76	0.07588
7.8	0.072569
7.84	0.069461
7.88	0.066541
7.92	0.063796
7.96	0.061211
8	0.058776
8.04	0.056479
8.08	0.054311
8.12	0.052262
8.16	0.050325
8.2	0.048493
8.24	0.046757
8.28	0.045112
8.32	0.043552
8.36	0.042071
8.4	0.040665
8.44	0.039329
8.48	0.038059
8.52	0.03685
8.56	0.035699
8.6	0.034603
8.64	0.033558
8.68	0.032562
8.72	0.031612
8.76	0.030705
8.8	0.02984
8.84	0.029013
8.88	0.028223
8.92	0.027467
8.96	0.026746
9	0.026055
9.04	0.025395
9.08	0.024764
9.12	0.024161
9.16	0.023584
9.2	0.023033
9.24	0.022506
9.28	0.022004
9.32	0.021527
9.36	0.021073
9.4	0.020644
9.44	0.020242
9.48	0.019869
9.52	0.01953
9.56	0.019235
9.6	0.018998
9.64	0.018852
9.68	0.01886
9.72	0.019154
9.76	0.019984
9.8	0.021468
9.84	0.022045
9.88	0.020252
9.92	0.018354
9.96	0.017167
10	0.016426
10.04	0.015916
10.08	0.01553
10.12	0.015218
10.16	0.014955
10.2	0.014727
10.24	0.014526
10.28	0.014348
10.32	0.014191
10.36	0.014054
10.4	0.013937
10.44	0.01384
10.48	0.013764
10.52	0.013712
10.56	0.013685
10.6	0.013687
10.64	0.013722
10.68	0.013798
10.72	0.013921
10.76	0.014102
10.8	0.014356
10.84	0.014703
10.88	0.015171
10.92	0.015801
10.96	0.016651
11	0.017813
11.04	0.019429
11.08	0.021735
11.12	0.025136
11.16	0.030371
11.2	0.038875
11.24	0.053592
11.28	0.080575
11.32	0.12882
11.36	0.18415
11.4	0.17115
11.44	0.11108
11.48	0.069013
11.52	0.046246
11.56	0.033712
11.6	0.026333
11.64	0.021693
11.68	0.018606
11.72	0.016454
11.76	0.014894
11.8	0.013726
11.84	0.012828
11.88	0.01212
11.92	0.011552
11.96	0.011087
12	0.010701
12.04	0.010377
12.08	0.0101
12.12	0.0098631
12.16	0.0096573
12.2	0.0094773
12.24	0.0093189
12.28	0.0091787
12.32	0.0090539
12.36	0.0089424
12.4	0.0088424
12.44	0.0087524
12.48	0.0086714
12.52	0.0085983
12.56	0.0085322
12.6	0.0084726
12.64	0.0084188
12.68	0.0083703
12.72	0.0083267
12.76	0.0082877
12.8	0.0082529
12.84	0.0082222
12.88	0.0081952
12.92	0.0081718
12.96	0.0081518
13	0.0081351
13.04	0.0081216
13.08	0.0081111
13.12	0.0081036
13.16	0.008099
13.2	0.0080973
13.24	0.0080983
13.28	0.0081022
13.32	0.0081087
13.36	0.008118
13.4	0.00813
13.44	0.0081448
13.48	0.0081622
13.52	0.0081824
13.56	0.0082054
13.6	0.0082312
13.64	0.0082598
13.68	0.0082913
13.72	0.0083257
13.76	0.0083632
13.8	0.0084037
13.84	0.0084473
13.88	0.0084942
13.92	0.0085444
13.96	0.008598
14	0.0086551
14.04	0.0087159
14.08	0.0087805
14.12	0.008849
14.16	0.0089216
14.2	0.0089985
14.24	0.0090798
14.28	0.0091659
14.32	0.0092568
14.36	0.0093529
14.4	0.0094545
14.44	0.0095619
14.48	0.0096754
14.52	0.0097955
14.56	0.0099227
14.6	0.010058
14.64	0.010201
14.68	0.010354
14.72	0.010518
14.76	0.010695
14.8	0.010889
14.84	0.011105
14.88	0.011353
14.92	0.011654
14.96	0.012051
15	0.01261
15.04	0.013258
15.08	0.013463
15.12	0.013299
15.16	0.013265
15.2	0.013392
15.24	0.013616
15.28	0.0139
15.32	0.014226
15.36	0.014589
15.4	0.014985
15.44	0.015415
15.48	0.015879
15.52	0.01638
15.56	0.01692
15.6	0.017504
15.64	0.018136
15.68	0.01882
15.72	0.019562
15.76	0.020369
15.8	0.021249
15.84	0.022211
15.88	0.023264
15.92	0.024423
15.96	0.0257
16	0.027113
16.04	0.028682
16.08	0.030432
16.12	0.032392
16.16	0.034598
16.2	0.037092
16.24	0.03993
16.28	0.043176
16.32	0.046916
16.36	0.051257
16.4	0.056334
16.44	0.062329
16.48	0.069477
16.52	0.078097
16.56	0.088627
16.6	0.10168
16.64	0.11812
16.68	0.13925
16.72	0.16701
16.76	0.20448
16.8	0.25667
16.84	0.33224
16.88	0.4469
16.92	0.63102
16.96	0.94678
17	1.5229
17.04	2.5627
17.08	3.8409
17.12	3.7057
17.16	2.3774
17.2	1.4012
17.24	0.87047
17.28	0.57977
17.32	0.40998
17.36	0.30416
17.4	0.23444
17.44	0.18638
17.48	0.152
17.52	0.12665
17.56	0.10746
17.6	0.092644
17.64	0.080992
17.68	0.071695
17.72	0.06419
17.76	0.058077
17.8	0.053072
17.84	0.048979
17.88	0.045676
17.92	0.043133
17.96	0.041413
18	0.040369
18.04	0.03871
18.08	0.036189
18.12	0.034112
18.16	0.032633
18.2	0.031563
18.24	0.030776
18.28	0.030208
18.32	0.029822
18.36	0.029596
18.4	0.02952
18.44	0.029586
18.48	0.02979
18.52	0.030134
18.56	0.030619
18.6	0.031252
18.64	0.032042
18.68	0.033
18.72	0.034144
18.76	0.035492
18.8	0.037071
18.84	0.038913
18.88	0.041057
18.92	0.043553
18.96	0.046466
19	0.049876
19.04	0.053887
19.08	0.058634
19.12	0.064294
19.16	0.071104
19.2	0.079385
19.24	0.089585
19.28	0.10233
19.32	0.11855
19.36	0.1396
19.4	0.16762
19.44	0.206
19.48	0.26049
19.52	0.34126
19.56	0.46748
19.6	0.6775
19.64	1.0513
19.68	1.7415
19.72	2.8295
19.76	3.3905
19.8	2.4898
19.84	1.4898
19.88	0.91391
19.92	0.60566
19.96	0.43289
20	0.3306
20.04	0.26775
20.08	0.22891
20.12	0.20612
20.16	0.19539
20.2	0.1951
20.24	0.20553
20.28	0.22895
20.32	0.27062
20.36	0.34117
20.4	0.46216
20.44	0.67875
20.48	1.0825
20.52	1.7841
20.56	2.4462
20.6	2.0923
20.64	1.2951
20.68	0.77643
20.72	0.49626
20.76	0.34006
20.8	0.24686
20.84	0.18756
20.88	0.14774
20.92	0.11978
20.96	0.099421
21	0.084143
21.04	0.072386
21.08	0.063144
21.12	0.055747
21.16	0.049736
21.2	0.044785
21.24	0.040663
21.28	0.037196
21.32	0.034258
21.36	0.03175
21.4	0.029598
21.44	0.027744
21.48	0.026141
21.52	0.024753
21.56	0.023553
21.6	0.022516
21.64	0.021625
21.68	0.020865
21.72	0.020226
21.76	0.019699
21.8	0.019278
21.84	0.018961
21.88	0.018746
21.92	0.018634
21.96	0.018631
22	0.018742
22.04	0.018979
22.08	0.019356
22.12	0.019895
22.16	0.020622
22.2	0.021575
22.24	0.022805
22.28	0.024383
22.32	0.026405
22.36	0.029011
22.4	0.032399
22.44	0.036869
22.48	0.042877
22.52	0.051151
22.56	0.062901
22.6	0.080242
22.64	0.10709
22.68	0.15115
22.72	0.22839
22.76	0.37091
22.8	0.61544
22.84	0.83459
22.88	0.70282
22.92	0.43323
22.96	0.2598
23	0.16624
23.04	0.11411
23.08	0.083052
23.12	0.063337
23.16	0.05014
23.2	0.040912
23.24	0.034223
23.28	0.029228
23.32	0.025403
23.36	0.022411
23.4	0.020029
23.44	0.018102
23.48	0.016523
23.52	0.015213
23.56	0.014115
23.6	0.013188
23.64	0.012397
23.68	0.01172
23.72	0.011136
23.76	0.010631
23.8	0.010191
23.84	0.0098085
23.88	0.0094748
23.92	0.0091841
23.96	0.0089318
24	0.0087146
24.04	0.0085308
24.08	0.0083811
24.12	0.0082708
24.16	0.0082134
24.2	0.0082353
24.24	0.008331
24.28	0.0082956
24.32	0.0080584
24.36	0.0078592
24.4	0.0077432
24.44	0.0076808
24.48	0.0076525
24.52	0.0076491
24.56	0.0076667
24.6	0.007704
24.64	0.0077618
24.68	0.0078425
24.72	0.0079517
24.76	0.0081
24.8	0.0083093
24.84	0.0086243
24.88	0.0091203
24.92	0.0097536
24.96	0.0099518
25	0.0096728
25.04	0.0095184
25.08	0.0095617
25.12	0.0097301
25.16	0.0099809
25.2	0.010297
25.24	0.010672
25.28	0.011109
25.32	0.011613
25.36	0.012192
25.4	0.012859
25.44	0.01363
25.48	0.014525
25.52	0.01557
25.56	0.016802
25.6	0.018264
25.64	0.020018
25.68	0.022147
25.72	0.024765
25.76	0.028037
25.8	0.032199
25.84	0.037604
25.88	0.044801
25.92	0.054669
25.96	0.068689
26	0.089483
26.04	0.12198
26.08	0.17605
26.12	0.27224
26.16	0.44994
26.2	0.73278
26.24	0.89324
26.28	0.66958
26.32	0.40171
26.36	0.24463
26.4	0.16006
26.44	0.11224
26.48	0.083356
26.52	0.064868
26.56	0.052473
26.6	0.043872
26.64	0.037782
26.68	0.033478
26.72	0.030598
26.76	0.029095
26.8	0.029156
26.84	0.029971
26.88	0.028078
26.92	0.024441
26.96	0.021842
27	0.020279
27.04	0.019325
27.08	0.018737
27.12	0.018393
27.16	0.018228
27.2	0.018207
27.24	0.01831
27.28	0.018524
27.32	0.018844
27.36	0.019266
27.4	0.019791
27.44	0.020424
27.48	0.021168
27.52	0.022034
27.56	0.023032
27.6	0.024176
27.64	0.025484
27.68	0.026978
27.72	0.028685
27.76	0.030638
27.8	0.03288
27.84	0.035461
27.88	0.038447
27.92	0.04192
27.96	0.045985
28	0.050778
28.04	0.056476
28.08	0.063317
28.12	0.07162
28.16	0.081826
28.2	0.094554
28.24	0.1107
28.28	0.13158
28.32	0.15922
28.36	0.19682
28.4	0.24969
28.44	0.32706
28.48	0.44593
28.52	0.63962
28.56	0.97705
28.6	1.5986
28.64	2.688
28.68	3.7746
28.72	3.2698
28.76	2.0162
28.8	1.196
28.84	0.75383
28.88	0.50841
28.92	0.36281
28.96	0.27078
29	0.20943
29.04	0.1667
29.08	0.13586
29.12	0.11293
29.16	0.095452
29.2	0.081859
29.24	0.071099
29.28	0.062455
29.32	0.055427
29.36	0.049655
29.4	0.044877
29.44	0.0409
29.48	0.037582
29.52	0.034817
29.56	0.03253
29.6	0.030676
29.64	0.029242
29.68	0.028265
29.72	0.02786
29.76	0.028142
29.8	0.028424
29.84	0.027587
29.88	0.026818
29.92	0.026875
29.96	0.027743
30	0.029455
30.04	0.032217
30.08	0.03645
30.12	0.042917
30.16	0.053014
30.2	0.069429
30.24	0.097626
30.28	0.149
30.32	0.24362
30.36	0.37774
30.4	0.40689
30.44	0.28051
30.48	0.16867
30.52	0.10607
30.56	0.071973
30.6	0.052238
30.64	0.040013
30.68	0.031979
30.72	0.026432
30.76	0.022444
30.8	0.01948
30.84	0.017215
30.88	0.015443
30.92	0.01403
30.96	0.012883
31	0.011941
31.04	0.011158
31.08	0.010502
31.12	0.0099505
31.16	0.0094877
31.2	0.0091039
31.24	0.0087966
31.28	0.0085725
31.32	0.0084563
31.36	0.0085078
31.4	0.0088475
31.44	0.0095362
31.48	0.0098105
31.52	0.0089219
31.56	0.0079799
31.6	0.0074004
31.64	0.0070563
31.68	0.0068424
31.72	0.00671
31.76	0.0066413
31.8	0.0066394
31.84	0.0067296
31.88	0.0069765
31.92	0.0075066
31.96	0.0083651
32	0.0087166
32.04	0.0079028
32.08	0.007077
32.12	0.0066044
32.16	0.0063501
32.2	0.006209
32.24	0.0061298
32.28	0.0060875
32.32	0.0060695
32.36	0.0060689
32.4	0.0060818
32.44	0.006106
32.48	0.00614
32.52	0.006183
32.56	0.0062344
32.6	0.006294
32.64	0.0063618
32.68	0.0064377
32.72	0.0065218
32.76	0.0066145
32.8	0.0067159
32.84	0.0068266
32.88	0.006947
32.92	0.0070777
32.96	0.0072193
33	0.0073727
33.04	0.0075389
33.08	0.0077189
33.12	0.0079143
33.16	0.0081266
33.2	0.0083582
33.24	0.008612
33.28	0.0088921
33.32	0.0092049
33.36	0.0095603
33.4	0.0099761
33.44	0.010487
33.48	0.011161
33.52	0.012115
33.56	0.013313
33.6	0.013902
33.64	0.013715
33.68	0.013707
33.72	0.01403
33.76	0.014575
33.8	0.01528
33.84	0.016122
33.88	0.0171
33.92	0.018227
33.96	0.019526
34	0.02103
34.04	0.022783
34.08	0.024847
34.12	0.027308
34.16	0.030284
34.2	0.033953
34.24	0.038578
34.28	0.044576
34.32	0.052634
34.36	0.063955
34.4	0.080782
34.44	0.10758
34.48	0.15352
34.52	0.23496
34.56	0.35403
34.6	0.40473
34.64	0.31575
34.68	0.2307
34.72	0.19347
34.76	0.1897
34.8	0.21098
34.84	0.25908
34.88	0.3466
34.92	0.50393
34.96	0.79563
35	1.3171
35.04	1.9369
35.08	1.9414
35.12	1.3176
35.16	0.788
35.2	0.49052
35.24	0.32797
35.28	0.23382
35.32	0.17566
35.36	0.13771
35.4	0.11183
35.44	0.093592
35.48	0.080409
35.52	0.070726
35.56	0.063562
35.6	0.058285
35.64	0.054475
35.68	0.05186
35.72	0.050263
35.76	0.049585
35.8	0.049787
35.84	0.050891
35.88	0.05299
35.92	0.056272
35.96	0.061071
36	0.067769
36.04	0.076007
36.08	0.085483
36.12	0.098417
36.16	0.11704
36.2	0.14392
36.24	0.1836
36.28	0.24451
36.32	0.34315
36.36	0.51339
36.4	0.82487
36.44	1.3809
36.48	2.033
36.52	1.9748
36.56	1.3024
36.6	0.77432
36.64	0.4818
36.68	0.32136
36.72	0.22775
36.76	0.16943
36.8	0.131
36.84	0.10446
36.88	0.085435
36.92	0.071356
36.96	0.060666
37	0.052368
37.04	0.045809
37.08	0.040542
37.12	0.036256
37.16	0.03273
37.2	0.029801
37.24	0.027351
37.28	0.025287
37.32	0.023542
37.36	0.022063
37.4	0.020809
37.44	0.019748
37.48	0.018856
37.52	0.018114
37.56	0.017509
37.6	0.017034
37.64	0.016687
37.68	0.016476
37.72	0.016424
37.76	0.016587
37.8	0.017079
37.84	0.018066
37.88	0.019223
37.92	0.019211
37.96	0.018552
38	0.018366
38.04	0.018681
38.08	0.019367
38.12	0.020371
38.16	0.021702
38.2	0.023405
38.24	0.025562
38.28	0.028296
38.32	0.031786
38.36	0.036294
38.4	0.042216
38.44	0.050162
38.48	0.061114
38.52	0.076715
38.56	0.099868
38.6	0.13601
38.64	0.19595
38.68	0.30222
38.72	0.49843
38.76	0.81666
38.8	1.0312
38.84	0.81769
38.88	0.49922
38.92	0.30122
38.96	0.19413
39	0.13398
39.04	0.097893
39.08	0.074908
39.12	0.059558
39.16	0.048979
39.2	0.041612
39.24	0.036377
39.28	0.031911
39.32	0.027916
39.36	0.024836
39.4	0.022538
39.44	0.020807
39.48	0.019506
39.52	0.018552
39.56	0.017895
39.6	0.017512
39.64	0.017396
39.68	0.017561
39.72	0.018045
39.76	0.018918
39.8	0.020296
39.84	0.022381
39.88	0.02552
39.92	0.030339
39.96	0.038039
40	0.051052
40.04	0.074392
40.08	0.11645
40.12	0.17387
40.16	0.1864
40.2	0.13531
40.24	0.091336
40.28	0.069399
40.32	0.061487
40.36	0.062932
40.4	0.073315
40.44	0.096245
40.48	0.1413
40.52	0.2253
40.56	0.34493
40.6	0.38014
40.64	0.26787
40.68	0.16192
40.72	0.10201
40.76	0.06949
40.8	0.050813
40.84	0.039384
40.88	0.032012
40.92	0.027067
40.96	0.023666
41	0.021304
41.04	0.019683
41.08	0.018619
41.12	0.018002
41.16	0.017769
41.2	0.017891
41.24	0.018367
41.28	0.019224
41.32	0.020518
41.36	0.022346
41.4	0.024859
41.44	0.028293
41.48	0.033015
41.52	0.039623
41.56	0.049118
41.6	0.063267
41.64	0.085362
41.68	0.12193
41.72	0.18656
41.76	0.30605
41.8	0.50544
41.84	0.66019
41.88	0.53824
41.92	0.33032
41.96	0.19851
42	0.12719
42.04	0.087233
42.08	0.063299
42.12	0.048036
42.16	0.037778
42.2	0.030579
42.24	0.025346
42.28	0.021427
42.32	0.01842
42.36	0.016063
42.4	0.014184
42.44	0.012662
42.48	0.011413
42.52	0.010377
42.56	0.0095083
42.6	0.0087749
42.64	0.0081514
42.68	0.0076187
42.72	0.0071621
42.76	0.0067706
42.8	0.0064362
42.84	0.0061538
42.88	0.0059215
42.92	0.0057427
42.96	0.0056301
43	0.0056153
43.04	0.0057563
43.08	0.0060346
43.12	0.0060013
43.16	0.0055426
43.2	0.0051663
43.24	0.0049572
43.28	0.0048547
43.32	0.0048213
43.36	0.0048419
43.4	0.0049136
43.44	0.0050414
43.48	0.0052374
43.52	0.0055226
43.56	0.0059317
43.6	0.0065222
43.64	0.0073935
43.68	0.0087248
43.72	0.010861
43.76	0.0145
43.8	0.02109
43.84	0.033022
43.88	0.049166
43.92	0.052977
43.96	0.038065
44	0.024089
44.04	0.016203
44.08	0.011968
44.12	0.0095946
44.16	0.008221
44.2	0.0074535
44.24	0.0071208
44.28	0.0070479
44.32	0.0068945
44.36	0.0065589
44.4	0.0062121
44.44	0.0060318
44.48	0.005996
44.52	0.0060586
44.56	0.0061953
44.6	0.006396
44.64	0.0066584
44.68	0.006985
44.72	0.0073823
44.76	0.0078603
44.8	0.0084331
44.84	0.0091202
44.88	0.0099476
44.92	0.010951
44.96	0.012179
45	0.013699
45.04	0.015609
45.08	0.018048
45.12	0.02123
45.16	0.025482
45.2	0.031335
45.24	0.039686
45.28	0.052133
45.32	0.071699
45.36	0.10447
45.4	0.16313
45.44	0.27105
45.48	0.43443
45.52	0.508
45.56	0.37519
45.6	0.22588
45.64	0.13834
45.68	0.09108
45.72	0.064316
45.76	0.048166
45.8	0.037874
45.84	0.031038
45.88	0.026369
45.92	0.023137
45.96	0.020912
46	0.019436
46.04	0.018552
46.08	0.018175
46.12	0.01827
46.16	0.018852
46.2	0.019993
46.24	0.021822
46.28	0.024393
46.32	0.027578
46.36	0.031941
46.4	0.038441
46.44	0.048227
46.48	0.063359
46.52	0.087885
46.56	0.1301
46.6	0.20692
46.64	0.34347
46.68	0.51596
46.72	0.53331
46.76	0.36055
46.8	0.21419
46.84	0.13261
46.88	0.08808
46.92	0.062252
46.96	0.046242
47	0.035731
47.04	0.028496
47.08	0.02332
47.12	0.019499
47.16	0.016605
47.2	0.014369
47.24	0.01262
47.28	0.011249
47.32	0.010203
47.36	0.00947
47.4	0.0089928
47.44	0.0083608
47.48	0.0074572
47.52	0.0066917
47.56	0.0061212
47.6	0.0056853
47.64	0.0053484
47.68	0.0051013
47.72	0.004961
47.76	0.004968
47.8	0.0050678
47.84	0.0048695
47.88	0.0043926
47.92	0.0039994
47.96	0.0037311
48	0.0035392
48.04	0.0033915
48.08	0.0032722
48.12	0.0031729
48.16	0.0030891
48.2	0.0030181
48.24	0.002958
48.28	0.0029079
48.32	0.0028669
48.36	0.0028345
48.4	0.0028104
48.44	0.0027947
48.48	0.0027874
48.52	0.0027887
48.56	0.0027993
48.6	0.00282
48.64	0.002852
48.68	0.0028974
48.72	0.0029591
48.76	0.0030426
48.8	0.0031571
48.84	0.003321
48.88	0.0035705
48.92	0.0039538
48.96	0.004367
49	0.0044252
49.04	0.0043265
49.08	0.0043742
49.12	0.0045687
49.16	0.0048804
49.2	0.0053059
49.24	0.0058629
49.28	0.0065884
49.32	0.0075435
49.36	0.008826
49.4	0.010597
49.44	0.013129
49.48	0.016918
49.52	0.022907
49.56	0.033016
49.6	0.051223
49.64	0.084204
49.68	0.12835
49.72	0.13482
49.76	0.094338
49.8	0.059987
49.84	0.042192
49.88	0.034901
49.92	0.034793
49.96	0.042158
50	0.059996
50.04	0.085286
50.08	0.088673
50.12	0.062083
50.16	0.038428
50.2	0.024981
50.24	0.017541
50.28	0.013166
50.32	0.010414
50.36	0.0085847
50.4	0.0073142
50.44	0.0064036
50.48	0.0057379
50.52	0.0052479
50.56	0.0048922
50.6	0.0046474
50.64	0.0045057
50.68	0.0044769
50.72	0.0045945
50.76	0.0048998
50.8	0.0052792
50.84	0.0053541
50.88	0.0053789
50.92	0.0057388
50.96	0.0065588
51	0.0080621
51.04	0.010781
51.08	0.015834
51.12	0.024866
51.16	0.035618
51.2	0.034067
51.24	0.022648
51.28	0.014315
51.32	0.0097735
51.36	0.0072794
51.4	0.0058214
51.44	0.0049154
51.48	0.0043241
51.52	0.0039237
51.56	0.0036459
51.6	0.003451
51.64	0.0033144
51.68	0.0032209
51.72	0.0031604
51.76	0.0031264
51.8	0.0031144
51.84	0.0031218
51.88	0.0031469
51.92	0.0031894
51.96	0.0032498
52	0.0033306
52.04	0.0034367
52.08	0.0035787
52.12	0.0037764
52.16	0.0040467
52.2	0.0043116
52.24	0.0044353
52.28	0.0045031
52.32	0.0046499
52.36	0.0048891
52.4	0.0052109
52.44	0.0056189
52.48	0.0061294
52.52	0.0067716
52.56	0.0075916
52.6	0.008661
52.64	0.010094
52.68	0.01208
52.72	0.014949
52.76	0.019309
52.8	0.026349
52.84	0.038533
52.88	0.060884
52.92	0.099977
52.96	0.13898
53	0.1212
53.04	0.076818
53.08	0.047912
53.12	0.032514
53.16	0.024201
53.2	0.019575
53.24	0.017025
53.28	0.015502
53.32	0.014297
53.36	0.013531
53.4	0.01327
53.44	0.013415
53.48	0.013905
53.52	0.014727
53.56	0.015914
53.6	0.017538
53.64	0.019734
53.68	0.022728
53.72	0.026908
53.76	0.032978
53.8	0.042289
53.84	0.057572
53.88	0.084156
53.92	0.12777
53.96	0.17132
54	0.17147
54.04	0.13908
54.08	0.11866
54.12	0.12173
54.16	0.14838
54.2	0.20748
54.24	0.32319
54.28	0.52379
54.32	0.72657
54.36	0.68139
54.4	0.44736
54.44	0.26862
54.48	0.16969
54.52	0.11522
54.56	0.083349
54.6	0.06352
54.64	0.050547
54.68	0.041744
54.72	0.035633
54.76	0.031365
54.8	0.028438
54.84	0.026558
54.88	0.025567
54.92	0.025411
54.96	0.026132
55	0.027889
55.04	0.030999
55.08	0.036058
55.12	0.044159
55.16	0.057401
55.2	0.080014
55.24	0.12079
55.28	0.19595
55.32	0.3117
55.36	0.38151
55.4	0.30446
55.44	0.18791
55.48	0.11454
55.52	0.07467
55.56	0.052176
55.6	0.038602
55.64	0.029883
55.68	0.023983
55.72	0.019819
55.76	0.016778
55.8	0.014496
55.84	0.012746
55.88	0.011383
55.92	0.010314
55.96	0.0094826
56	0.0088569
56.04	0.008387
56.08	0.0079217
56.12	0.0074509
56.16	0.0070869
56.2	0.0068396
56.24	0.0066964
56.28	0.0066623
56.32	0.006752
56.36	0.0069156
56.4	0.0070047
56.44	0.007002
56.48	0.007103
56.52	0.0073746
56.56	0.0078192
56.6	0.00846
56.64	0.0093507
56.68	0.010584
56.72	0.012312
56.76	0.014793
56.8	0.018478
56.84	0.024209
56.88	0.033642
56.92	0.050196
56.96	0.080502
57	0.13044
57.04	0.17467
57.08	0.15979
57.12	0.1056
57.16	0.064141
57.2	0.041077
57.24	0.028369
57.28	0.020959
57.32	0.016408
57.36	0.013512
57.4	0.011468
57.44	0.0097987
57.48	0.0085378
57.52	0.007631
57.56	0.0069718
57.6	0.0064877
57.64	0.0061343
57.68	0.0058837
57.72	0.0057187
57.76	0.0056286
57.8	0.0056083
57.84	0.0056574
57.88	0.00578
57.92	0.0059856
57.96	0.0062913
58	0.0067245
58.04	0.0073296
58.08	0.008179
58.12	0.0093949
58.16	0.011194
58.2	0.01398
58.24	0.018558
58.28	0.026603
58.32	0.04142
58.36	0.06593
58.4	0.083427
58.44	0.066301
58.48	0.042207
58.52	0.027895
58.56	0.020406
58.6	0.016432
58.64	0.01431
58.68	0.013254
58.72	0.012887
58.76	0.013024
58.8	0.013588
58.84	0.014568
58.88	0.016005
58.92	0.017996
58.96	0.02071
59	0.024418
59.04	0.029469
59.08	0.036393
59.12	0.046464
59.16	0.061912
59.2	0.086851
59.24	0.12968
59.28	0.20756
59.32	0.34573
59.36	0.51648
59.4	0.53417
59.44	0.3681
59.48	0.21974
59.52	0.13552
59.56	0.089537
59.6	0.062967
59.64	0.046565
59.68	0.035838
59.72	0.028483
59.76	0.023243
59.8	0.019392
59.84	0.016494
59.88	0.014275
59.92	0.012569
59.96	0.011283
60	0.010347