File: examples/Basic_examples/xrd.dat
2	86.753
2.04	91.772
2.08	95.96
2.12	98.845
2.16	100
2.2	99.142
2.24	96.231
2.28	91.493
2.32	85.368
2.36	78.394
2.4	71.097
2.44	63.903
2.48	57.107
2.52	50.882
2.56	45.304
2.6	40.381
2.64	36.08
2.68	32.347
2.72	29.118
2.76	26.332
2.8	23.927
2.84	21.852
2.88	20.06
2.92	18.513
2.96	17.179
3	16.029
3.04	15.043
3.08	14.203
3.12	13.492
3.16	12.897
3.2	12.402
3.24	11.99
3.28	11.644
3.32	11.348
3.36	11.096
3.4	10.894
3.44	10.75
3.48	10.671
3.52	10.658
3.56	10.71
3.6	10.824
3.64	10.999
3.68	11.239
3.72	11.549
3.76	11.936
3.8	12.408
3.84	12.971
3.88	13.632
3.92	14.398
3.96	15.272
4	16.259
4.04	17.357
4.08	18.56
4.12	19.848
4.16	21.189
4.2	22.534
4.24	23.808
4.28	24.921
4.32	25.768
4.36	26.251
4.4	26.293
4.44	25.867
4.48	24.997
4.52	23.757
4.56	22.251
4.6	20.593
4.64	18.884
4.68	17.206
4.72	15.616
4.76	14.147
4.8	12.814
4.84	11.622
4.88	10.565
4.92	9.6347
4.96	8.8202
5	8.1097
5.04	7.4919
5.08	6.9561
5.12	6.4916
5.16	6.0875
5.2	5.732
5.24	5.4129
5.28	5.1205
5.32	4.8499
5.36	4.6013
5.4	4.3765
5.44	4.1771
5.48	4.0038
5.52	3.8565
5.56	3.7342
5.6	3.6357
5.64	3.5596
5.68	3.5047
5.72	3.47
5.76	3.4547
5.8	3.4588
5.84	3.4826
5.88	3.5267
5.92	3.592
5.96	3.6793
6	3.7882
6.04	3.9172
6.08	4.0641
6.12	4.2267
6.16	4.4051
6.2	4.6021
6.24	4.8215
6.28	5.0653
6.32	5.3326
6.36	5.6179
6.4	5.9117
6.44	6.1991
6.48	6.4612
6.52	6.6749
6.56	6.8164
6.6	6.8648
6.64	6.8082
6.68	6.648
6.72	6.3982
6.76	6.0815
6.8	5.7235
6.84	5.348
6.88	4.9748
6.92	4.6185
6.96	4.2886
7	3.9896
7.04	3.7223
7.08	3.4838
7.12	3.2692
7.16	3.0717
7.2	2.8845
7.24	2.7028
7.28	2.5265
7.32	2.3591
7.36	2.2053
7.4	2.0686
7.44	1.9502
7.48	1.8494
7.52	1.7638
7.56	1.6903
7.6	1.6247
7.64	1.5632
7.68	1.5033
7.72	1.4438
7.76	1.3857
7.8	1.3307
7.84	1.2807
7.88	1.2373
7.92	1.2014
7.96	1.1733
8	1.153
8.04	1.1403
8.08	1.1349
8.12	1.136
8.16	1.143
8.2	1.1546
8.24	1.1701
8.28	1.1889
8.32	1.2116
8.36	1.2391
8.4	1.2725
8.44	1.3125
8.48	1.3593
8.52	1.4125
8.56	1.4706
8.6	1.5315
8.64	1.5921
8.68	1.6482
8.72	1.6948
8.76	1.7273
8.8	1.7416
8.84	1.7357
8.88	1.71
8.92	1.6671
8.96	1.6108
9	1.5455
9.04	1.4747
9.08	1.4009
9.12	1.3261
9.16	1.2519
9.2	1.1798
9.24	1.1113
9.28	1.0474
9.32	0.98894
9.36	0.93653
9.4	0.89063
9.44	0.85142
9.48	0.8186
9.52	0.79143
9.56	0.76876
9.6	0.74934
9.64	0.73217
9.68	0.71689
9.72	0.70379
9.76	0.69351
9.8	0.68659
9.84	0.68318
9.88	0.68291
9.92	0.68489
9.96	0.68794
10	0.6907
10.04	0.69183
10.08	0.6902
10.12	0.68525
10.16	0.67726
10.2	0.66734
10.24	0.65682
10.28	0.6466
10.32	0.63688
10.36	0.62753
10.4	0.61851
10.44	0.61011
10.48	0.6027
10.52	0.59665
10.56	0.59243
10.6	0.59063
10.64	0.59176
10.68	0.59561
10.72	0.60087
10.76	0.60516
10.8	0.60568
10.84	0.60048
10.88	0.58949
10.92	0.57451
10.96	0.55823
11	0.54301
11.04	0.53019
11.08	0.51995
11.12	0.51166
11.16	0.50436
11.2	0.49733
11.24	0.49031
11.28	0.48352
11.32	0.47734
11.36	0.47215
11.4	0.46814
11.44	0.46539
11.48	0.46391
11.52	0.4636
11.56	0.46431
11.6	0.46592
11.64	0.4684
11.68	0.47191
11.72	0.47678
11.76	0.48321
11.8	0.49103
11.84	0.49964
11.88	0.5082
11.92	0.51618
11.96	0.52381
12	0.53202
12.04	0.54193
12.08	0.55415
12.12	0.56827
12.16	0.58278
12.2	0.59537
12.24	0.60376
12.28	0.60661
12.32	0.60405
12.36	0.59739
12.4	0.58822
12.44	0.57771
12.48	0.5664
12.52	0.55452
12.56	0.54232
12.6	0.53025
12.64	0.51884
12.68	0.50871
12.72	0.50045
12.76	0.49459
12.8	0.49148
12.84	0.49129
12.88	0.49402
12.92	0.49968
12.96	0.50833
13	0.51994
13.04	0.53421
13.08	0.55044
13.12	0.5674
13.16	0.58344
13.2	0.59674
13.24	0.60571
13.28	0.60942
13.32	0.60778
13.36	0.60136
13.4	0.59104
13.44	0.57768
13.48	0.5621
13.52	0.54511
13.56	0.52753
13.6	0.51017
13.64	0.49376
13.68	0.47879
13.72	0.46547
13.76	0.45372
13.8	0.4433
13.84	0.43408
13.88	0.42617
13.92	0.4199
13.96	0.41561
14	0.4135
14.04	0.41362
14.08	0.41586
14.12	0.42003
14.16	0.42597
14.2	0.4335
14.24	0.44243
14.28	0.45243
14.32	0.46293
14.36	0.47299
14.4	0.48145
14.44	0.4871
14.48	0.48918
14.52	0.48764
14.56	0.48313
14.6	0.47662
14.64	0.46897
14.68	0.4608
14.72	0.45259
14.76	0.44487
14.8	0.43824
14.84	0.43316
14.88	0.42994
14.92	0.42865
14.96	0.42923
15	0.43158
15.04	0.43554
15.08	0.44087
15.12	0.44709
15.16	0.45346
15.2	0.45903
15.24	0.46293
15.28	0.46457
15.32	0.46391
15.36	0.46144
15.4	0.45803
15.44	0.4546
15.48	0.45199
15.52	0.45084
15.56	0.45162
15.6	0.45447
15.64	0.45908
15.68	0.4646
15.72	0.46969
15.76	0.47288
15.8	0.47299
15.84	0.46955
15.88	0.46279
15.92	0.45353
15.96	0.44285
16	0.43185
16.04	0.42148
16.08	0.41248
16.12	0.40528
16.16	0.40004
16.2	0.39664
16.24	0.39484
16.28	0.3944
16.32	0.39513
16.36	0.39686
16.4	0.39933
16.44	0.40201
16.48	0.40418
16.52	0.40511
16.56	0.40429
16.6	0.40163
16.64	0.39743
16.68	0.39222
16.72	0.3866
16.76	0.38113
16.8	0.37629
16.84	0.37254
16.88	0.37025
16.92	0.36975
16.96	0.37125
17	0.37482
17.04	0.38039
17.08	0.38772
17.12	0.39644
17.16	0.40615
17.2	0.41644
17.24	0.42701
17.28	0.43776
17.32	0.44867
17.36	0.4597
17.4	0.47058
17.44	0.4807
17.48	0.48913
17.52	0.49496
17.56	0.49752
17.6	0.4967
17.64	0.49288
17.68	0.48673
17.72	0.47901
17.76	0.47047
17.8	0.46182
17.84	0.45371
17.88	0.44659
17.92	0.44069
17.96	0.43606
18	0.43267
18.04	0.43044
18.08	0.42926
18.12	0.42893
18.16	0.42913
18.2	0.42951
18.24	0.42978
18.28	0.42979
18.32	0.42958
18.36	0.42929
18.4	0.42909
18.44	0.42921
18.48	0.4299
18.52	0.43141
18.56	0.4339
18.6	0.4374
18.64	0.4417
18.68	0.44649
18.72	0.45138
18.76	0.45613
18.8	0.46071
18.84	0.46537
18.88	0.4706
18.92	0.47698
18.96	0.48507
19	0.49531
19.04	0.50798
19.08	0.52323
19.12	0.54111
19.16	0.56158
19.2	0.58453
19.24	0.60979
19.28	0.63717
19.32	0.66662
19.36	0.69828
19.4	0.7325
19.44	0.76981
19.48	0.81084
19.52	0.85631
19.56	0.90703
19.6	0.96394
19.64	1.028
19.68	1.1001
19.72	1.1802
19.76	1.2676
19.8	1.3599
19.84	1.4525
19.88	1.5395
19.92	1.6137
19.96	1.6693
20	1.7028
20.04	1.7152
20.08	1.7109
20.12	1.6962
20.16	1.6768
20.2	1.656
20.24	1.634
20.28	1.6088
20.32	1.5768
20.36	1.5355
20.4	1.4845
20.44	1.4259
20.48	1.3641
20.52	1.3039
20.56	1.2497
20.6	1.2046
20.64	1.1702
20.68	1.1468
20.72	1.1336
20.76	1.1287
20.8	1.1292
20.84	1.1311
20.88	1.13
20.92	1.1216
20.96	1.1028
21	1.0726
21.04	1.0323
21.08	0.98501
21.12	0.93454
21.16	0.88449
21.2	0.8378
21.24	0.79658
21.28	0.76218
21.32	0.73539
21.36	0.71654
21.4	0.70565
21.44	0.7025
21.48	0.7066
21.52	0.71709
21.56	0.73265
21.6	0.75129
21.64	0.77029
21.68	0.78631
21.72	0.79586
21.76	0.79607
21.8	0.78547
21.84	0.76444
21.88	0.73503
21.92	0.70025
21.96	0.6633
22	0.62691
22.04	0.59315
22.08	0.5634
22.12	0.53846
22.16	0.51872
22.2	0.50431
22.24	0.49522
22.28	0.49137
22.32	0.49268
22.36	0.49909
22.4	0.51051
22.44	0.52683
22.48	0.54777
22.52	0.57281
22.56	0.60101
22.6	0.63081
22.64	0.65993
22.68	0.6854
22.72	0.70394
22.76	0.71262
22.8	0.70973
22.84	0.69532
22.88	0.67118
22.92	0.64023
22.96	0.6057
23	0.57043
23.04	0.53654
23.08	0.50541
23.12	0.47784
23.16	0.45423
23.2	0.4347
23.24	0.41928
23.28	0.40792
23.32	0.40056
23.36	0.39713
23.4	0.39757
23.44	0.40186
23.48	0.41003
23.52	0.42216
23.56	0.43839
23.6	0.45882
23.64	0.48347
23.68	0.51206
23.72	0.54389
23.76	0.57761
23.8	0.61109
23.84	0.6414
23.88	0.66505
23.92	0.67857
23.96	0.67941
24	0.66665
24.04	0.64133
24.08	0.60614
24.12	0.56458
24.16	0.52012
24.2	0.47565
24.24	0.43319
24.28	0.39396
24.32	0.35854
24.36	0.32706
24.4	0.29934
24.44	0.27505
24.48	0.25376
24.52	0.23501
24.56	0.21833
24.6	0.2033
24.64	0.18955
24.68	0.17683
24.72	0.165
24.76	0.15398
24.8	0.14375
24.84	0.13431
24.88	0.12567
24.92	0.11778
24.96	0.11061
25	0.10411
25.04	0.098211
25.08	0.092846
25.12	0.087957
25.16	0.083485
25.2	0.079382
25.24	0.075603
25.28	0.072106
25.32	0.068855
25.36	0.06582
25.4	0.062973
25.44	0.060294
25.48	0.057771
25.52	0.055393
25.56	0.053154
25.6	0.051049
25.64	0.049072
25.68	0.047217
25.72	0.045477
25.76	0.043847
25.8	0.04232
25.84	0.040889
25.88	0.039549
25.92	0.038294
25.96	0.037118
26	0.036018
26.04	0.034989
26.08	0.034026
26.12	0.033125
26.16	0.032281
26.2	0.031489
26.24	0.030741
26.28	0.03003
26.32	0.029344
26.36	0.028674
26.4	0.028008
26.44	0.027337
26.48	0.026657
26.52	0.025969
26.56	0.025275
26.6	0.024584
26.64	0.023902
26.68	0.023236
26.72	0.022592
26.76	0.021971
26.8	0.021377
26.84	0.020809
26.88	0.020266
26.92	0.019749
26.96	0.019254
27	0.018782
27.04	0.01833
27.08	0.017897
27.12	0.017483
27.16	0.017085
27.2	0.016704
27.24	0.016337
27.28	0.015983
27.32	0.015643
27.36	0.015315
27.4	0.014999
27.44	0.014693
27.48	0.014398
27.52	0.014112
27.56	0.013835
27.6	0.013568
27.64	0.013308
27.68	0.013057
27.72	0.012813
27.76	0.012576
27.8	0.012347
27.84	0.012123
27.88	0.011907
27.92	0.011696
27.96	0.01149
28	0.011291
28.04	0.011097
28.08	0.010907
28.12	0.010723
28.16	0.010544
28.2	0.010369
28.24	0.010198
28.28	0.010032
28.32	0.0098697
28.36	0.0097114
28.4	0.0095569
28.44	0.0094061
28.48	0.0092588
28.52	0.009115
28.56	0.0089744
28.6	0.0088371
28.64	0.0087029
28.68	0.0085716
28.72	0.0084433
28.76	0.0083179
28.8	0.0081951
28.84	0.008075
28.88	0.0079575
28.92	0.0078425
28.96	0.0077299
29	0.0076196
29.04	0.0075117
29.08	0.0074059
29.12	0.0073023
29.16	0.0072008
29.2	0.0071014
29.24	0.0070039
29.28	0.0069084
29.32	0.0068147
29.36	0.0067229
29.4	0.0066328
29.44	0.0065445
29.48	0.0064578
29.52	0.0063728
29.56	0.0062894
29.6	0.0062076
29.64	0.0061273
29.68	0.0060484
29.72	0.005971
29.76	0.005895
29.8	0.0058204
29.84	0.0057471
29.88	0.0056752
29.92	0.0056045
29.96	0.005535
30	0.0054668
30.04	0.0053997
30.08	0.0053338
30.12	0.0052691
30.16	0.0052054
30.2	0.0051429
30.24	0.0050814
30.28	0.0050209
30.32	0.0049614
30.36	0.0049029
30.4	0.0048454
30.44	0.0047889
30.48	0.0047332
30.52	0.0046785
30.56	0.0046246
30.6	0.0045716
30.64	0.0045195
30.68	0.0044682
30.72	0.0044177
30.76	0.0043679
30.8	0.004319
30.84	0.0042708
30.88	0.0042234
30.92	0.0041767
30.96	0.0041307
31	0.0040855
31.04	0.0040409
31.08	0.0039969
31.12	0.0039537
31.16	0.0039111
31.2	0.0038691
31.24	0.0038277
31.28	0.003787
31.32	0.0037468
31.36	0.0037072
31.4	0.0036683
31.44	0.0036298
31.48	0.0035919
31.52	0.0035546
31.56	0.0035178
31.6	0.0034815
31.64	0.0034458
31.68	0.0034105
31.72	0.0033757
31.76	0.0033414
31.8	0.0033076
31.84	0.0032743
31.88	0.0032414
31.92	0.003209
31.96	0.003177
32	0.0031454
32.04	0.0031143
32.08	0.0030836
32.12	0.0030533
32.16	0.0030234
32.2	0.0029939
32.24	0.0029648
32.28	0.0029361
32.32	0.0029078
32.36	0.0028798
32.4	0.0028522
32.44	0.0028249
32.48	0.002798
32.52	0.0027715
32.56	0.0027453
32.6	0.0027194
32.64	0.0026939
32.68	0.0026686
32.72	0.0026437
32.76	0.0026192
32.8	0.0025949
32.84	0.0025709
32.88	0.0025472
32.92	0.0025238
32.96	0.0025007
33	0.0024779
33.04	0.0024554
33.08	0.0024331
33.12	0.0024112
33.16	0.0023894
33.2	0.002368
33.24	0.0023468
33.28	0.0023258
33.32	0.0023052
33.36	0.0022847
33.4	0.0022645
33.44	0.0022445
33.48	0.0022248
33.52	0.0022053
33.56	0.002186
33.6	0.002167
33.64	0.0021482
33.68	0.0021296
33.72	0.0021112
33.76	0.002093
33.8	0.002075
33.84	0.0020573
33.88	0.0020397
33.92	0.0020224
33.96	0.0020052
34	0.0019882
34.04	0.0019715
34.08	0.0019549
34.12	0.0019385
34.16	0.0019222
34.2	0.0019062
34.24	0.0018903
34.28	0.0018746
34.32	0.0018591
34.36	0.0018438
34.4	0.0018286
34.44	0.0018136
34.48	0.0017987
34.52	0.001784
34.56	0.0017695
34.6	0.0017551
34.64	0.0017409
34.68	0.0017269
34.72	0.0017129
34.76	0.0016992
34.8	0.0016855
34.84	0.0016721
34.88	0.0016587
34.92	0.0016455
34.96	0.0016325
35	0.0016196
35.04	0.0016068
35.08	0.0015941
35.12	0.0015816
35.16	0.0015692
35.2	0.0015569
35.24	0.0015448
35.28	0.0015328
35.32	0.0015209
35.36	0.0015091
35.4	0.0014975
35.44	0.0014859
35.48	0.0014745
35.52	0.0014632
35.56	0.001452
35.6	0.001441
35.64	0.00143
35.68	0.0014191
35.72	0.0014084
35.76	0.0013977
35.8	0.0013872
35.84	0.0013768
35.88	0.0013664
35.92	0.0013562
35.96	0.0013461
36	0.0013361
36.04	0.0013261
36.08	0.0013163
36.12	0.0013066
36.16	0.0012969
36.2	0.0012874
36.24	0.0012779
36.28	0.0012685
36.32	0.0012592
36.36	0.00125
36.4	0.0012409
36.44	0.0012319
36.48	0.001223
36.52	0.0012141
36.56	0.0012054
36.6	0.0011967
36.64	0.0011881
36.68	0.0011796
36.72	0.0011711
36.76	0.0011628
36.8	0.0011545
36.84	0.0011463
36.88	0.0011381
36.92	0.0011301
36.96	0.0011221
37	0.0011142
37.04	0.0011063
37.08	0.0010986
37.12	0.0010909
37.16	0.0010832
37.2	0.0010757
37.24	0.0010682
37.28	0.0010608
37.32	0.0010534
37.36	0.0010461
37.4	0.0010389
37.44	0.0010317
37.48	0.0010246
37.52	0.0010176
37.56	0.0010106
37.6	0.0010037
37.64	0.00099688
37.68	0.00099009
37.72	0.00098337
37.76	0.0009767
37.8	0.00097009
37.84	0.00096353
37.88	0.00095704
37.92	0.0009506
37.96	0.00094421
38	0.00093789
38.04	0.00093161
38.08	0.00092539
38.12	0.00091922
38.16	0.00091311
38.2	0.00090705
38.24	0.00090104
38.28	0.00089508
38.32	0.00088917
38.36	0.00088332
38.4	0.00087751
38.44	0.00087175
38.48	0.00086604
38.52	0.00086038
38.56	0.00085476
38.6	0.0008492
38.64	0.00084367
38.68	0.0008382
38.72	0.00083277
38.76	0.00082739
38.8	0.00082205
38.84	0.00081675
38.88	0.0008115
38.92	0.00080629
38.96	0.00080112
39	0.000796
39.04	0.00079092
39.08	0.00078588
39.12	0.00078088
39.16	0.00077592
39.2	0.000771
39.24	0.00076613
39.28	0.00076129
39.32	0.00075649
39.36	0.00075173
39.4	0.000747
39.44	0.00074232
39.48	0.00073767
39.52	0.00073306
39.56	0.00072849
39.6	0.00072395
39.64	0.00071945
39.68	0.00071499
39.72	0.00071056
39.76	0.00070616
39.8	0.0007018
39.84	0.00069748
39.88	0.00069318
39.92	0.00068893
39.96	0.0006847
40	0.00068051
40.04	0.00067635
40.08	0.00067222
40.12	0.00066813
40.16	0.00066407
40.2	0.00066003
40.24	0.00065603
40.28	0.00065207
40.32	0.00064813
40.36	0.00064422
40.4	0.00064034
40.44	0.00063649
40.48	0.00063267
40.52	0.00062888
40.56	0.00062512
40.6	0.00062138
40.64	0.00061768
40.68	0.000614
40.72	0.00061035
40.76	0.00060673
40.8	0.00060314
40.84	0.00059957
40.88	0.00059603
40.92	0.00059252
40.96	0.00058903
41	0.00058557
41.04	0.00058213
41.08	0.00057872
41.12	0.00057534
41.16	0.00057198
41.2	0.00056864
41.24	0.00056533
41.28	0.00056204
41.32	0.00055878
41.36	0.00055554
41.4	0.00055233
41.44	0.00054914
41.48	0.00054597
41.52	0.00054283
41.56	0.00053971
41.6	0.00053661
41.64	0.00053353
41.68	0.00053048
41.72	0.00052744
41.76	0.00052443
41.8	0.00052145
41.84	0.00051848
41.88	0.00051553
41.92	0.00051261
41.96	0.00050971
42	0.00050682
42.04	0.00050396
42.08	0.00050112
42.12	0.0004983
42.16	0.0004955
42.2	0.00049272
42.24	0.00048995
42.28	0.00048721
42.32	0.00048449
42.36	0.00048178
42.4	0.0004791
42.44	0.00047643
42.48	0.00047379
42.52	0.00047116
42.56	0.00046855
42.6	0.00046595
42.64	0.00046338
42.68	0.00046082
42.72	0.00045829
42.76	0.00045576
42.8	0.00045326
42.84	0.00045077
42.88	0.00044831
42.92	0.00044585
42.96	0.00044342
43	0.000441
43.04	0.0004386
43.08	0.00043621
43.12	0.00043384
43.16	0.00043149
43.2	0.00042915
43.24	0.00042683
43.28	0.00042453
43.32	0.00042224
43.36	0.00041996
43.4	0.0004177
43.44	0.00041546
43.48	0.00041323
43.52	0.00041102
43.56	0.00040882
43.6	0.00040664
43.64	0.00040447
43.68	0.00040231
43.72	0.00040017
43.76	0.00039805
43.8	0.00039593
43.84	0.00039384
43.88	0.00039175
43.92	0.00038968
43.96	0.00038763
44	0.00038558
44.04	0.00038355
44.08	0.00038154
44.12	0.00037953
44.16	0.00037754
44.2	0.00037557
44.24	0.0003736
44.28	0.00037165
44.32	0.00036972
44.36	0.00036779
44.4	0.00036588
44.44	0.00036398
44.48	0.00036209
44.52	0.00036021
44.56	0.00035835
44.6	0.0003565
44.64	0.00035466
44.68	0.00035283
44.72	0.00035101
44.76	0.00034921
44.8	0.00034742
44.84	0.00034564
44.88	0.00034387
44.92	0.00034211
44.96	0.00034036
45	0.00033862
45.04	0.0003369
45.08	0.00033519
45.12	0.00033348
45.16	0.00033179
45.2	0.00033011
45.24	0.00032844
45.28	0.00032678
45.32	0.00032513
45.36	0.00032349
45.4	0.00032186
45.44	0.00032024
45.48	0.00031863
45.52	0.00031703
45.56	0.00031544
45.6	0.00031386
45.64	0.00031229
45.68	0.00031073
45.72	0.00030918
45.76	0.00030764
45.8	0.00030611
45.84	0.00030459
45.88	0.00030308
45.92	0.00030158
45.96	0.00030009
46	0.0002986
46.04	0.00029713
46.08	0.00029566
46.12	0.0002942
46.16	0.00029276
46.2	0.00029132
46.24	0.00028989
46.28	0.00028847
46.32	0.00028705
46.36	0.00028565
46.4	0.00028425
46.44	0.00028287
46.48	0.00028149
46.52	0.00028012
46.56	0.00027876
46.6	0.0002774
46.64	0.00027606
46.68	0.00027472
46.72	0.00027339
46.76	0.00027207
46.8	0.00027076
46.84	0.00026945
46.88	0.00026815
46.92	0.00026686
46.96	0.00026558
47	0.0002643
47.04	0.00026304
47.08	0.00026178
47.12	0.00026053
47.16	0.00025928
47.2	0.00025804
47.24	0.00025681
47.28	0.00025559
47.32	0.00025438
47.36	0.00025317
47.4	0.00025197
47.44	0.00025077
47.48	0.00024959
47.52	0.00024841
47.56	0.00024723
47.6	0.00024607
47.64	0.00024491
47.68	0.00024375
47.72	0.00024261
47.76	0.00024147
47.8	0.00024034
47.84	0.00023921
47.88	0.00023809
47.92	0.00023698
47.96	0.00023587
48	0.00023477
48.04	0.00023368
48.08	0.00023259
48.12	0.00023151
48.16	0.00023043
48.2	0.00022936
48.24	0.0002283
48.28	0.00022724
48.32	0.00022619
48.36	0.00022515
48.4	0.00022411
48.44	0.00022308
48.48	0.00022205
48.52	0.00022103
48.56	0.00022001
48.6	0.00021901
48.64	0.000218
48.68	0.000217
48.72	0.00021601
48.76	0.00021502
48.8	0.00021404
48.84	0.00021307
48.88	0.0002121
48.92	0.00021113
48.96	0.00021017
49	0.00020922
49.04	0.00020827
49.08	0.00020733
49.12	0.00020639
49.16	0.00020546
49.2	0.00020453
49.24	0.00020361
49.28	0.00020269
49.32	0.00020178
49.36	0.00020087
49.4	0.00019997
49.44	0.00019907
49.48	0.00019818
49.52	0.00019729
49.56	0.00019641
49.6	0.00019554
49.64	0.00019466
49.68	0.0001938
49.72	0.00019293
49.76	0.00019207
49.8	0.00019122
49.84	0.00019037
49.88	0.00018953
49.92	0.00018869
49.96	0.00018785
50	0.00018702
50.04	0.0001862
50.08	0.00018538
50.12	0.00018456
50.16	0.00018375
50.2	0.00018294
50.24	0.00018214
50.28	0.00018134
50.32	0.00018054
50.36	0.00017975
50.4	0.00017897
50.44	0.00017818
50.48	0.00017741
50.52	0.00017663
50.56	0.00017586
50.6	0.0001751
50.64	0.00017434
50.68	0.00017358
50.72	0.00017283
50.76	0.00017208
50.8	0.00017133
50.84	0.00017059
50.88	0.00016985
50.92	0.00016912
50.96	0.00016839
51	0.00016767
51.04	0.00016694
51.08	0.00016623
51.12	0.00016551
51.16	0.0001648
51.2	0.0001641
51.24	0.00016339
51.28	0.00016269
51.32	0.000162
51.36	0.00016131
51.4	0.00016062
51.44	0.00015994
51.48	0.00015925
51.52	0.00015858
51.56	0.0001579
51.6	0.00015723
51.64	0.00015657
51.68	0.0001559
51.72	0.00015524
51.76	0.00015459
51.8	0.00015394
51.84	0.00015329
51.88	0.00015264
51.92	0.000152
51.96	0.00015136
52	0.00015072
52.04	0.00015009
52.08	0.00014946
52.12	0.00014883
52.16	0.00014821
52.2	0.00014759
52.24	0.00014697
52.28	0.00014636
52.32	0.00014575
52.36	0.00014514
52.4	0.00014454
52.44	0.00014394
52.48	0.00014334
52.52	0.00014275
52.56	0.00014215
52.6	0.00014156
52.64	0.00014098
52.68	0.0001404
52.72	0.00013982
52.76	0.00013924
52.8	0.00013867
52.84	0.00013809
52.88	0.00013753
52.92	0.00013696
52.96	0.0001364
53	0.00013584
53.04	0.00013528
53.08	0.00013473
53.12	0.00013418
53.16	0.00013363
53.2	0.00013308
53.24	0.00013254
53.28	0.000132
53.32	0.00013146
53.36	0.00013093
53.4	0.0001304
53.44	0.00012987
53.48	0.00012934
53.52	0.00012882
53.56	0.00012829
53.6	0.00012778
53.64	0.00012726
53.68	0.00012675
53.72	0.00012623
53.76	0.00012573
53.8	0.00012522
53.84	0.00012472
53.88	0.00012421
53.92	0.00012372
53.96	0.00012322
54	0.00012273
54.04	0.00012223
54.08	0.00012175
54.12	0.00012126
54.16	0.00012078
54.2	0.00012029
54.24	0.00011981
54.28	0.00011934
54.32	0.00011886
54.36	0.00011839
54.4	0.00011792
54.44	0.00011745
54.48	0.00011699
54.52	0.00011652
54.56	0.00011606
54.6	0.0001156
54.64	0.00011515
54.68	0.00011469
54.72	0.00011424
54.76	0.00011379
54.8	0.00011334
54.84	0.0001129
54.88	0.00011245
54.92	0.00011201
54.96	0.00011157
55	0.00011114
55.04	0.0001107
55.08	0.00011027
55.12	0.00010984
55.16	0.00010941
55.2	0.00010898
55.24	0.00010856
55.28	0.00010814
55.32	0.00010772
55.36	0.0001073
55.4	0.00010688
55.44	0.00010647
55.48	0.00010605
55.52	0.00010564
55.56	0.00010524
55.6	0.00010483
55.64	0.00010442
55.68	0.00010402
55.72	0.00010362
55.76	0.00010322
55.8	0.00010282
55.84	0.00010243
55.88	0.00010204
55.92	0.00010164
55.96	0.00010126
56	0.00010087
56.04	0.00010048
56.08	0.0001001
56.12	9.9715e-05
56.16	9.9335e-05
56.2	9.8956e-05
56.24	9.8579e-05
56.28	9.8204e-05
56.32	9.783e-05
56.36	9.7459e-05
56.4	9.7089e-05
56.44	9.672e-05
56.48	9.6354e-05
56.52	9.5989e-05
56.56	9.5626e-05
56.6	9.5265e-05
56.64	9.4905e-05
56.68	9.4547e-05
56.72	9.4191e-05
56.76	9.3836e-05
56.8	9.3483e-05
56.84	9.3131e-05
56.88	9.2781e-05
56.92	9.2433e-05
56.96	9.2087e-05
57	9.1742e-05
57.04	9.1398e-05
57.08	9.1056e-05
57.12	9.0716e-05
57.16	9.0378e-05
57.2	9.004e-05
57.24	8.9705e-05
57.28	8.9371e-05
57.32	8.9038e-05
57.36	8.8707e-05
57.4	8.8378e-05
57.44	8.805e-05
57.48	8.7724e-05
57.52	8.7399e-05
57.56	8.7075e-05
57.6	8.6753e-05
57.64	8.6433e-05
57.68	8.6114e-05
57.72	8.5796e-05
57.76	8.548e-05
57.8	8.5165e-05
57.84	8.4852e-05
57.88	8.454e-05
57.92	8.4229e-05
57.96	8.392e-05
58	8.3613e-05
58.04	8.3306e-05
58.08	8.3001e-05
58.12	8.2698e-05
58.16	8.2396e-05
58.2	8.2095e-05
58.24	8.1795e-05
58.28	8.1497e-05
58.32	8.1201e-05
58.36	8.0905e-05
58.4	8.0611e-05
58.44	8.0318e-05
58.48	8.0027e-05
58.52	7.9737e-05
58.56	7.9448e-05
58.6	7.916e-05
58.64	7.8874e-05
58.68	7.8589e-05
58.72	7.8305e-05
58.76	7.8023e-05
58.8	7.7742e-05
58.84	7.7462e-05
58.88	7.7183e-05
58.92	7.6905e-05
58.96	7.6629e-05
59	7.6354e-05
59.04	7.608e-05
59.08	7.5808e-05
59.12	7.5536e-05
59.16	7.5266e-05
59.2	7.4997e-05
59.24	7.4729e-05
59.28	7.4463e-05
59.32	7.4197e-05
59.36	7.3933e-05
59.4	7.367e-05
59.44	7.3408e-05
59.48	7.3147e-05
59.52	7.2887e-05
59.56	7.2629e-05
59.6	7.2371e-05
59.64	7.2115e-05
59.68	7.186e-05
59.72	7.1606e-05
59.76	7.1353e-05
59.8	7.1101e-05
59.84	7.0851e-05
59.88	7.0601e-05
59.92	7.0352e-05
59.96	7.0105e-05
60	6.9859e-05